File: jupiter-notebooks/src/PMoida.txt
/////////////////////////////////////////////////////////////////////////////////
/// Profile Data Ascii Dump (XRD)                                             ///
/////////////////////////////////////////////////////////////////////////////////

  Group     : 2019_05_08_Caio
  Data      : PMoida
  File Name : PMoida.RAW

# Profile Datafile
          comment             =
          date & time         = 05-08-19 09:36:25

# Measurement Condition
    X-ray tube
          target              = Cu
          voltage             = 40.0 (kV)
          current             = 40.0 (mA)
    Slits
          divergence slit     = 1.00000 (mm)
          scatter slit        = 1.00000 (mm)
          receiving slit      = 0.30000 (mm)
    Scanning
          drive axis          = Theta-2Theta
          scan range          =    5.000 -  120.000
          scan mode           = Continuous Scan
          scan speed          =   2.0000 (deg/min)
          sampling pitch      =   0.0200 (deg)
          preset time         =   0.60 (sec)

# Data      [ Total No. = 5751 ]
  <2Theta>   <   I   >
     5.0000        30
     5.0800        28
     5.1600        30
     5.2400        36
     5.3200        36
     5.4000        24
     5.4800        28
     5.5600        18
     5.6400        32
     5.7200        28
     5.8000        24
     5.8800        30
     5.9600        30
     6.0400        26
     6.1200        20
     6.2000        26
     6.2800        32
     6.3600        26
     6.4400        18
     6.5200        22
     6.6000        26
     6.6800        28
     6.7600        28
     6.8400        28
     6.9200        22
     7.0000        16
     7.0800        28
     7.1600        26
     7.2400        24
     7.3200        18
     7.4000        24
     7.4800        24
     7.5600        28
     7.6400        30
     7.7200        24
     7.8000        32
     7.8800        22
     7.9600        26
     8.0400        26
     8.1200        22
     8.2000        20
     8.2800        16
     8.3600        32
     8.4400        28
     8.5200        34
     8.6000        28
     8.6800        26
     8.7600        34
     8.8400        28
     8.9200        38
     9.0000        36
     9.0800        28
     9.1600        22
     9.2400        30
     9.3200        20
     9.4000        30
     9.4800        42
     9.5600        28
     9.6400        26
     9.7200        26
     9.8000        24
     9.8800        28
     9.9600        28
    10.0400        30
    10.1200        28
    10.2000        22
    10.2800        30
    10.3600        30
    10.4400        24
    10.5200        26
    10.6000        32
    10.6800        38
    10.7600        20
    10.8400        32
    10.9200        26
    11.0000        28
    11.0800        34
    11.1600        22
    11.2400        32
    11.3200        24
    11.4000        36
    11.4800        26
    11.5600        26
    11.6400        16
    11.7200        28
    11.8000        20
    11.8800        18
    11.9600        40
    12.0400        40
    12.1200        36
    12.2000        44
    12.2800        30
    12.3600        28
    12.4400        42
    12.5200        32
    12.6000        26
    12.6800        34
    12.7600        38
    12.8400        42
    12.9200        26
    13.0000        42
    13.0800        32
    13.1600        26
    13.2400        36
    13.3200        38
    13.4000        32
    13.4800        40
    13.5600        42
    13.6400        44
    13.7200        24
    13.8000        28
    13.8800        38
    13.9600        48
    14.0400        56
    14.1200        52
    14.2000        46
    14.2800        42
    14.3600        38
    14.4400        38
    14.5200        58
    14.6000        42
    14.6800        48
    14.7600        42
    14.8400        48
    14.9200        38
    15.0000        46
    15.0800        42
    15.1600        42
    15.2400        54
    15.3200        52
    15.4000        54
    15.4800        48
    15.5600        58
    15.6400        54
    15.7200        56
    15.8000        46
    15.8800        52
    15.9600        48
    16.0400        54
    16.1200        46
    16.2000        50
    16.2800        50
    16.3600        56
    16.4400        50
    16.5200        70
    16.6000        90
    16.6800       118
    16.7600        72
    16.8400        54
    16.9200        48
    17.0000        50
    17.0800        46
    17.1600        54
    17.2400        46
    17.3200        36
    17.4000        44
    17.4800        54
    17.5600        36
    17.6400        48
    17.7200        54
    17.8000        44
    17.8800        52
    17.9600        50
    18.0400        44
    18.1200        44
    18.2000        46
    18.2800        42
    18.3600        32
    18.4400        48
    18.5200        46
    18.6000        50
    18.6800        58
    18.7600        56
    18.8400        50
    18.9200        44
    19.0000        56
    19.0800        54
    19.1600        48
    19.2400        42
    19.3200        52
    19.4000        48
    19.4800        68
    19.5600        40
    19.6400        64
    19.7200        58
    19.8000        58
    19.8800        54
    19.9600        58
    20.0400        40
    20.1200        58
    20.2000        68
    20.2800        58
    20.3600        56
    20.4400        60
    20.5200        48
    20.6000        54
    20.6800        58
    20.7600        66
    20.8400        60
    20.9200        70
    21.0000        66
    21.0800        52
    21.1600        62
    21.2400        56
    21.3200        50
    21.4000        58
    21.4800        62
    21.5600        60
    21.6400        58
    21.7200        60
    21.8000        50
    21.8800        62
    21.9600        54
    22.0400        68
    22.1200        58
    22.2000        58
    22.2800        52
    22.3600        64
    22.4400        58
    22.5200        66
    22.6000        52
    22.6800        46
    22.7600        52
    22.8400        66
    22.9200        58
    23.0000        52
    23.0800        62
    23.1600        64
    23.2400        74
    23.3200        68
    23.4000        64
    23.4800        70
    23.5600        86
    23.6400        98
    23.7200        90
    23.8000        76
    23.8800        70
    23.9600        70
    24.0400        68
    24.1200        78
    24.2000        74
    24.2800        64
    24.3600        72
    24.4400        74
    24.5200        70
    24.6000        50
    24.6800        86
    24.7600        88
    24.8400        92
    24.9200        80
    25.0000        90
    25.0800        84
    25.1600        88
    25.2400        82
    25.3200        84
    25.4000        84
    25.4800       102
    25.5600        74
    25.6400        74
    25.7200        76
    25.8000        92
    25.8800        78
    25.9600        70
    26.0400        66
    26.1200        70
    26.2000        76
    26.2800        64
    26.3600        76
    26.4400        42
    26.5200        64
    26.6000        68
    26.6800        62
    26.7600        68
    26.8400        82
    26.9200        72
    27.0000        72
    27.0800        74
    27.1600        70
    27.2400        80
    27.3200        58
    27.4000        76
    27.4800        72
    27.5600        64
    27.6400        70
    27.7200        60
    27.8000        64
    27.8800        68
    27.9600        58
    28.0400        68
    28.1200        56
    28.2000        54
    28.2800        48
    28.3600        58
    28.4400        48
    28.5200        62
    28.6000        74
    28.6800        68
    28.7600        64
    28.8400        72
    28.9200       100
    29.0000        98
    29.0800       112
    29.1600        94
    29.2400        58
    29.3200        50
    29.4000        58
    29.4800        52
    29.5600        52
    29.6400        50
    29.7200        62
    29.8000        44
    29.8800        50
    29.9600        46
    30.0400        60
    30.1200        50
    30.2000        48
    30.2800        42
    30.3600        34
    30.4400        42
    30.5200        42
    30.6000        60
    30.6800        38
    30.7600        38
    30.8400        48
    30.9200        44
    31.0000        40
    31.0800        34
    31.1600        30
    31.2400        42
    31.3200        36
    31.4000        36
    31.4800        28
    31.5600        30
    31.6400        32
    31.7200        30
    31.8000        32
    31.8800        28
    31.9600        32
    32.0400        40
    32.1200        26
    32.2000        34
    32.2800        24
    32.3600        32
    32.4400        32
    32.5200        28
    32.6000        26
    32.6800        26
    32.7600        38
    32.8400        36
    32.9200        36
    33.0000        34
    33.0800        38
    33.1600        38
    33.2400        36
    33.3200        36
    33.4000        42
    33.4800        26
    33.5600        44
    33.6400        28
    33.7200        38
    33.8000        50
    33.8800        34
    33.9600        30
    34.0400        34
    34.1200        38
    34.2000        24
    34.2800        24
    34.3600        26
    34.4400        40
    34.5200        36
    34.6000        30
    34.6800        26
    34.7600        24
    34.8400        28
    34.9200        38
    35.0000        26
    35.0800        34
    35.1600        40
    35.2400        44
    35.3200        54
    35.4000        44
    35.4800        54
    35.5600        40
    35.6400        42
    35.7200        30
    35.8000        32
    35.8800        32
    35.9600        30
    36.0400        16
    36.1200        24
    36.2000        28
    36.2800        26
    36.3600        28
    36.4400        24
    36.5200        26
    36.6000        34
    36.6800        42
    36.7600        26
    36.8400        26
    36.9200        20
    37.0000        24
    37.0800        28
    37.1600        26
    37.2400        24
    37.3200        32
    37.4000        30
    37.4800        32
    37.5600        28
    37.6400        20
    37.7200        40
    37.8000        34
    37.8800        30
    37.9600        22
    38.0400        22
    38.1200        32
    38.2000        40
    38.2800        28
    38.3600        20
    38.4400        26
    38.5200        18
    38.6000        18
    38.6800        22
    38.7600        26
    38.8400        22
    38.9200        34
    39.0000        24
    39.0800        10
    39.1600        24
    39.2400        26
    39.3200        34
    39.4000        26
    39.4800        24
    39.5600        26
    39.6400        22
    39.7200        22
    39.8000        26
    39.8800        20
    39.9600        32
    40.0400        22
    40.1200        20
    40.2000        24
    40.2800        20
    40.3600        18
    40.4400        24
    40.5200        12
    40.6000        22
    40.6800        28
    40.7600        18
    40.8400        22
    40.9200        24
    41.0000        20
    41.0800        20
    41.1600        24
    41.2400        26
    41.3200        40
    41.4000        20
    41.4800        22
    41.5600        22
    41.6400        12
    41.7200        24
    41.8000        26
    41.8800        22
    41.9600        30
    42.0400        16
    42.1200        28
    42.2000        24
    42.2800        24
    42.3600        18
    42.4400        24
    42.5200        38
    42.6000        36
    42.6800        22
    42.7600        20
    42.8400        16
    42.9200        24
    43.0000        34
    43.0800        30
    43.1600        30
    43.2400        24
    43.3200        30
    43.4000        28
    43.4800        26
    43.5600        22
    43.6400        24
    43.7200        26
    43.8000        20
    43.8800        26
    43.9600        30
    44.0400        28
    44.1200        34
    44.2000        26
    44.2800        24
    44.3600        26
    44.4400        28
    44.5200        38
    44.6000        20
    44.6800        32
    44.7600        22
    44.8400        32
    44.9200        40
    45.0000        30
    45.0800        30
    45.1600        36
    45.2400        36
    45.3200        26
    45.4000        18
    45.4800        22
    45.5600        18
    45.6400        24
    45.7200        22
    45.8000        20
    45.8800        16
    45.9600        18
    46.0400        12
    46.1200        16
    46.2000        24
    46.2800        26
    46.3600        22
    46.4400        18
    46.5200        20
    46.6000        18
    46.6800        18
    46.7600        24
    46.8400        22
    46.9200        24
    47.0000        18
    47.0800        24
    47.1600        22
    47.2400        20
    47.3200        22
    47.4000        20
    47.4800        16
    47.5600        16
    47.6400        24
    47.7200        18
    47.8000        16
    47.8800        16
    47.9600        24
    48.0400        20
    48.1200        24
    48.2000        20
    48.2800        20
    48.3600        20
    48.4400        20
    48.5200        32
    48.6000        20
    48.6800        14
    48.7600        28
    48.8400        24
    48.9200        16
    49.0000        14
    49.0800        28
    49.1600        18
    49.2400        22
    49.3200        20
    49.4000        28
    49.4800        22
    49.5600        16
    49.6400        18
    49.7200        18
    49.8000        18
    49.8800        16
    49.9600        22
    50.0400        26
    50.1200        18
    50.2000        28
    50.2800        14
    50.3600        18
    50.4400        18
    50.5200        12
    50.6000        16
    50.6800        20
    50.7600        14
    50.8400        18
    50.9200        20
    51.0000        16
    51.0800        22
    51.1600        20
    51.2400        20
    51.3200        20
    51.4000        26
    51.4800        24
    51.5600        26
    51.6400        24
    51.7200        20
    51.8000        20
    51.8800        20
    51.9600        18
    52.0400        26
    52.1200        12
    52.2000        14
    52.2800        26
    52.3600        16
    52.4400        20
    52.5200        22
    52.6000        16
    52.6800        22
    52.7600        16
    52.8400        16
    52.9200        18
    53.0000        20
    53.0800        22
    53.1600        24
    53.2400        20
    53.3200        28
    53.4000        16
    53.4800        20
    53.5600        20
    53.6400        16
    53.7200        18
    53.8000        18
    53.8800        18
    53.9600        14
    54.0400        18
    54.1200        22
    54.2000        16
    54.2800        26
    54.3600        24
    54.4400        22
    54.5200        18
    54.6000        26
    54.6800        20
    54.7600        18
    54.8400        22
    54.9200        22
    55.0000        14
    55.0800        16
    55.1600        18
    55.2400        22
    55.3200        16
    55.4000        22
    55.4800        16
    55.5600        22
    55.6400        14
    55.7200        20
    55.8000        12
    55.8800        12
    55.9600        20
    56.0400        20
    56.1200         8
    56.2000        16
    56.2800        20
    56.3600        20
    56.4400        22
    56.5200        16
    56.6000        20
    56.6800        22
    56.7600        18
    56.8400        16
    56.9200        28
    57.0000        26
    57.0800        18
    57.1600        22
    57.2400        22
    57.3200        20
    57.4000        20
    57.4800        20
    57.5600        16
    57.6400        16
    57.7200        22
    57.8000        16
    57.8800        20
    57.9600        16
    58.0400        16
    58.1200        10
    58.2000        18
    58.2800        12
    58.3600        12
    58.4400        10
    58.5200        14
    58.6000        16
    58.6800        10
    58.7600        16
    58.8400        14
    58.9200        14
    59.0000        12
    59.0800        16
    59.1600        14
    59.2400        10
    59.3200        12
    59.4000         8
    59.4800        14
    59.5600         8
    59.6400        16
    59.7200         8
    59.8000        14
    59.8800        14
    59.9600        10
    60.0400        18
    60.1200        14
    60.2000        20
    60.2800        14
    60.3600         8
    60.4400        14
    60.5200        16
    60.6000        16
    60.6800        14
    60.7600        16
    60.8400        18
    60.9200        10
    61.0000        18
    61.0800        16
    61.1600        14
    61.2400        12
    61.3200        16
    61.4000        18
    61.4800        16
    61.5600        16
    61.6400        14
    61.7200        20
    61.8000        14
    61.8800        12
    61.9600        16
    62.0400        12
    62.1200        22
    62.2000        16
    62.2800        22
    62.3600        24
    62.4400        24
    62.5200        24
    62.6000        26
    62.6800        14
    62.7600        22
    62.8400        12
    62.9200        18
    63.0000        14
    63.0800        14
    63.1600        14
    63.2400        16
    63.3200        18
    63.4000        12
    63.4800        18
    63.5600        18
    63.6400        20
    63.7200         8
    63.8000        10
    63.8800        22
    63.9600        18
    64.0400        12
    64.1200        16
    64.2000        14
    64.2800        12
    64.3600        18
    64.4400        14
    64.5200        20
    64.6000        16
    64.6800        12
    64.7600        12
    64.8400        14
    64.9200        12
    65.0000        18
    65.0800        12
    65.1600        10
    65.2400        14
    65.3200        10
    65.4000        18
    65.4800        10
    65.5600        22
    65.6400        24
    65.7200        10
    65.8000        16
    65.8800        16
    65.9600        18
    66.0400        10
    66.1200        18
    66.2000        16
    66.2800        16
    66.3600         6
    66.4400        18
    66.5200         6
    66.6000         8
    66.6800        12
    66.7600        10
    66.8400        12
    66.9200        16
    67.0000        18
    67.0800        16
    67.1600         6
    67.2400         8
    67.3200         8
    67.4000        16
    67.4800        10
    67.5600        10
    67.6400         8
    67.7200        20
    67.8000        20
    67.8800        14
    67.9600        14
    68.0400        16
    68.1200        26
    68.2000        10
    68.2800        18
    68.3600        20
    68.4400        16
    68.5200        10
    68.6000        12
    68.6800        14
    68.7600        20
    68.8400        14
    68.9200        16
    69.0000        12
    69.0800        16
    69.1600        10
    69.2400        14
    69.3200        16
    69.4000        14
    69.4800        12
    69.5600        12
    69.6400         8
    69.7200        16
    69.8000         8
    69.8800        14
    69.9600         4
    70.0400        18
    70.1200        16
    70.2000        10
    70.2800        12
    70.3600        12
    70.4400        10
    70.5200         2
    70.6000        24
    70.6800        10
    70.7600        14
    70.8400        14
    70.9200        12
    71.0000        18
    71.0800        18
    71.1600        12
    71.2400         8
    71.3200        14
    71.4000        14
    71.4800        14
    71.5600        12
    71.6400        12
    71.7200        12
    71.8000        10
    71.8800        20
    71.9600         6
    72.0400        14
    72.1200        18
    72.2000         8
    72.2800        18
    72.3600        14
    72.4400        18
    72.5200         6
    72.6000        10
    72.6800         6
    72.7600        12
    72.8400        14
    72.9200        14
    73.0000        18
    73.0800        16
    73.1600         8
    73.2400        16
    73.3200        18
    73.4000        10
    73.4800         8
    73.5600        18
    73.6400        16
    73.7200        12
    73.8000        10
    73.8800        20
    73.9600        12
    74.0400        12
    74.1200         8
    74.2000         6
    74.2800        16
    74.3600         8
    74.4400        16
    74.5200        10
    74.6000         8
    74.6800        12
    74.7600        16
    74.8400        14
    74.9200         4
    75.0000        16
    75.0800        18
    75.1600        12
    75.2400        14
    75.3200        20
    75.4000        10
    75.4800        16
    75.5600        10
    75.6400        14
    75.7200        18
    75.8000        18
    75.8800        14
    75.9600        16
    76.0400        18
    76.1200        10
    76.2000        18
    76.2800         6
    76.3600        18
    76.4400         8
    76.5200         8
    76.6000        12
    76.6800         6
    76.7600        12
    76.8400        18
    76.9200        10
    77.0000        10
    77.0800        16
    77.1600         8
    77.2400        16
    77.3200        12
    77.4000        22
    77.4800        14
    77.5600        16
    77.6400        22
    77.7200        14
    77.8000        14
    77.8800        10
    77.9600        22
    78.0400        12
    78.1200        10
    78.2000        12
    78.2800        12
    78.3600        10
    78.4400        14
    78.5200        10
    78.6000        12
    78.6800        12
    78.7600        16
    78.8400         8
    78.9200        14
    79.0000        18
    79.0800        12
    79.1600        12
    79.2400        16
    79.3200        10
    79.4000        14
    79.4800        10
    79.5600        12
    79.6400         8
    79.7200        14
    79.8000        14
    79.8800         8
    79.9600        14
    80.0400        12
    80.1200        12
    80.2000         8
    80.2800         8
    80.3600        10
    80.4400        14
    80.5200        16
    80.6000        12
    80.6800        12
    80.7600         6
    80.8400        16
    80.9200        16
    81.0000        14
    81.0800        14
    81.1600        16
    81.2400        12
    81.3200        10
    81.4000        10
    81.4800         8
    81.5600        10
    81.6400        10
    81.7200        14
    81.8000         6
    81.8800        12
    81.9600         8
    82.0400        12
    82.1200         4
    82.2000        16
    82.2800         4
    82.3600        14
    82.4400         6
    82.5200        10
    82.6000        10
    82.6800         8
    82.7600        14
    82.8400        10
    82.9200        20
    83.0000        12
    83.0800         6
    83.1600        16
    83.2400        10
    83.3200        16
    83.4000        12
    83.4800         8
    83.5600        14
    83.6400        12
    83.7200        10
    83.8000        10
    83.8800         6
    83.9600        12
    84.0400        14
    84.1200        10
    84.2000        12
    84.2800        14
    84.3600         8
    84.4400        12
    84.5200        16
    84.6000        16
    84.6800        10
    84.7600        14
    84.8400        14
    84.9200         4
    85.0000        22
    85.0800        14
    85.1600        12
    85.2400        14
    85.3200        18
    85.4000        18
    85.4800        14
    85.5600        18
    85.6400        12
    85.7200        12
    85.8000        14
    85.8800         8
    85.9600        12
    86.0400        12
    86.1200        14
    86.2000        10
    86.2800        10
    86.3600        16
    86.4400        14
    86.5200        14
    86.6000        10
    86.6800        18
    86.7600        12
    86.8400        14
    86.9200        10
    87.0000        12
    87.0800         6
    87.1600         4
    87.2400        12
    87.3200        10
    87.4000         6
    87.4800         6
    87.5600         8
    87.6400         6
    87.7200        10
    87.8000        18
    87.8800        16
    87.9600        14
    88.0400        14
    88.1200        10
    88.2000         8
    88.2800        14
    88.3600        18
    88.4400        10
    88.5200         8
    88.6000         4
    88.6800        12
    88.7600        12
    88.8400        10
    88.9200        14
    89.0000        18
    89.0800        20
    89.1600        12
    89.2400        12
    89.3200        16
    89.4000        10
    89.4800        14
    89.5600        14
    89.6400        20
    89.7200        12
    89.8000         8
    89.8800        14
    89.9600         2
    90.0400        12
    90.1200         8
    90.2000        12
    90.2800        10
    90.3600        10
    90.4400         8
    90.5200         8
    90.6000        10
    90.6800        14
    90.7600         8
    90.8400        10
    90.9200        14
    91.0000        14
    91.0800         4
    91.1600         6
    91.2400         6
    91.3200         8
    91.4000        12
    91.4800         6
    91.5600         8
    91.6400        10
    91.7200         8
    91.8000        12
    91.8800        10
    91.9600         8
    92.0400         8
    92.1200         8
    92.2000        10
    92.2800         8
    92.3600         8
    92.4400        12
    92.5200        10
    92.6000         4
    92.6800        10
    92.7600        14
    92.8400        10
    92.9200         8
    93.0000        10
    93.0800         6
    93.1600         4
    93.2400        10
    93.3200        10
    93.4000        16
    93.4800        12
    93.5600        12
    93.6400        10
    93.7200        12
    93.8000        10
    93.8800         8
    93.9600         8
    94.0400         8
    94.1200        18
    94.2000        14
    94.2800        10
    94.3600        12
    94.4400        12
    94.5200         8
    94.6000         8
    94.6800         6
    94.7600         8
    94.8400        12
    94.9200        14
    95.0000        10
    95.0800        14
    95.1600        12
    95.2400        10
    95.3200        12
    95.4000        10
    95.4800        10
    95.5600         8
    95.6400         8
    95.7200         8
    95.8000         2
    95.8800        16
    95.9600        12
    96.0400         8
    96.1200         6
    96.2000         6
    96.2800        12
    96.3600        12
    96.4400        14
    96.5200        10
    96.6000         6
    96.6800        12
    96.7600         8
    96.8400         4
    96.9200        12
    97.0000        12
    97.0800         6
    97.1600         6
    97.2400        10
    97.3200         8
    97.4000         8
    97.4800        14
    97.5600        12
    97.6400        12
    97.7200         6
    97.8000         8
    97.8800        12
    97.9600        16
    98.0400        14
    98.1200        14
    98.2000        16
    98.2800        10
    98.3600        12
    98.4400        10
    98.5200        14
    98.6000        10
    98.6800         6
    98.7600        16
    98.8400         8
    98.9200         2
    99.0000        14
    99.0800        10
    99.1600        18
    99.2400         6
    99.3200        10
    99.4000        12
    99.4800        10
    99.5600         8
    99.6400        14
    99.7200         8
    99.8000         8
    99.8800         8
    99.9600         8
   100.0400         6
   100.1200         6
   100.2000        14
   100.2800         8
   100.3600        10
   100.4400        10
   100.5200         6
   100.6000         2
   100.6800         8
   100.7600         6
   100.8400         8
   100.9200         6
   101.0000         6
   101.0800         8
   101.1600         6
   101.2400        10
   101.3200         8
   101.4000        14
   101.4800         6
   101.5600        12
   101.6400         6
   101.7200        18
   101.8000         6
   101.8800         8
   101.9600         8
   102.0400         8
   102.1200        10
   102.2000        10
   102.2800         8
   102.3600        12
   102.4400         4
   102.5200         8
   102.6000        16
   102.6800         8
   102.7600         8
   102.8400         4
   102.9200        10
   103.0000         6
   103.0800        12
   103.1600         6
   103.2400         8
   103.3200         6
   103.4000        10
   103.4800         8
   103.5600        12
   103.6400         6
   103.7200        12
   103.8000        12
   103.8800        10
   103.9600        10
   104.0400        12
   104.1200         8
   104.2000        16
   104.2800         6
   104.3600        10
   104.4400        12
   104.5200        14
   104.6000        12
   104.6800        12
   104.7600         8
   104.8400         8
   104.9200        10
   105.0000        10
   105.0800        10
   105.1600        10
   105.2400        14
   105.3200         6
   105.4000         8
   105.4800        10
   105.5600        12
   105.6400        12
   105.7200         8
   105.8000        10
   105.8800        10
   105.9600         4
   106.0400        10
   106.1200         6
   106.2000         4
   106.2800         6
   106.3600        12
   106.4400         8
   106.5200        10
   106.6000        12
   106.6800        10
   106.7600         8
   106.8400         8
   106.9200         8
   107.0000         8
   107.0800        14
   107.1600        10
   107.2400        12
   107.3200        10
   107.4000         6
   107.4800        10
   107.5600        10
   107.6400        10
   107.7200         8
   107.8000        12
   107.8800        10
   107.9600        10
   108.0400        12
   108.1200        10
   108.2000         6
   108.2800         8
   108.3600         8
   108.4400        10
   108.5200        18
   108.6000        10
   108.6800         4
   108.7600         6
   108.8400        10
   108.9200         6
   109.0000        14
   109.0800        12
   109.1600        12
   109.2400         6
   109.3200         8
   109.4000         2
   109.4800        14
   109.5600        10
   109.6400         4
   109.7200        12
   109.8000        12
   109.8800        10
   109.9600        12
   110.0400        10
   110.1200        14
   110.2000        12
   110.2800         6
   110.3600        10
   110.4400         6
   110.5200        10
   110.6000        10
   110.6800        12
   110.7600        12
   110.8400        12
   110.9200        12
   111.0000         6
   111.0800        10
   111.1600        12
   111.2400        12
   111.3200         8
   111.4000        12
   111.4800        12
   111.5600        16
   111.6400        10
   111.7200        10
   111.8000        10
   111.8800        10
   111.9600        10
   112.0400        14
   112.1200        16
   112.2000         8
   112.2800        10
   112.3600         8
   112.4400         8
   112.5200        14
   112.6000         8
   112.6800        10
   112.7600        10
   112.8400        14
   112.9200         2
   113.0000         8
   113.0800        16
   113.1600        10
   113.2400         8
   113.3200         8
   113.4000        10
   113.4800        10
   113.5600         4
   113.6400        16
   113.7200        10
   113.8000         8
   113.8800        10
   113.9600        10
   114.0400        10
   114.1200         8
   114.2000        10
   114.2800         8
   114.3600        14
   114.4400        14
   114.5200        16
   114.6000        10
   114.6800        10
   114.7600        12
   114.8400         8
   114.9200         6
   115.0000        12
   115.0800         6
   115.1600        12
   115.2400        12
   115.3200         6
   115.4000        12
   115.4800         8
   115.5600        18
   115.6400        12
   115.7200        10
   115.8000        10
   115.8800        14
   115.9600        12
   116.0400        14
   116.1200         6
   116.2000        10
   116.2800         6
   116.3600        10
   116.4400        10
   116.5200         4
   116.6000        16
   116.6800         8
   116.7600        10
   116.8400         8
   116.9200         6
   117.0000        12
   117.0800        12
   117.1600        14
   117.2400         8
   117.3200         6
   117.4000        16
   117.4800         8
   117.5600         6
   117.6400        10
   117.7200        10
   117.8000        10
   117.8800        10
   117.9600        10
   118.0400        18
   118.1200         8
   118.2000        10
   118.2800         8
   118.3600         6
   118.4400         8
   118.5200        12
   118.6000        10
   118.6800        10
   118.7600        16
   118.8400         6
   118.9200         8
   119.0000         6
   119.0800        18
   119.1600         8
   119.2400        14
   119.3200        16
   119.4000        10
   119.4800         4
   119.5600         8
   119.6400        14
   119.7200         8
   119.8000         2
   119.8800        16
   119.9600        10
   120.0000        14