File: jupiter-notebooks/src/PNMoida.txt
/////////////////////////////////////////////////////////////////////////////////
/// Profile Data Ascii Dump (XRD)                                             ///
/////////////////////////////////////////////////////////////////////////////////

  Group     : 2019_05_08_Caio
  Data      : PNMoida
  File Name : PNMoida.RAW

# Profile Datafile
          comment             =
          date & time         = 05-09-19 11:43:58

# Measurement Condition
    X-ray tube
          target              = Cu
          voltage             = 40.0 (kV)
          current             = 40.0 (mA)
    Slits
          divergence slit     = 1.00000 (mm)
          scatter slit        = 1.00000 (mm)
          receiving slit      = 0.30000 (mm)
    Scanning
          drive axis          = Theta-2Theta
          scan range          =    5.000 -  120.000
          scan mode           = Continuous Scan
          scan speed          =   2.0000 (deg/min)
          sampling pitch      =   0.0200 (deg)
          preset time         =   0.60 (sec)

# Data      [ Total No. = 5751 ]
  <2Theta>   <   I   >
     5.0000        34
     5.0800        24
     5.1600        26
     5.2400        30
     5.3200        32
     5.4000        42
     5.4800        30
     5.5600        34
     5.6400        32
     5.7200        30
     5.8000        26
     5.8800        28
     5.9600        30
     6.0400        36
     6.1200        32
     6.2000        28
     6.2800        28
     6.3600        28
     6.4400        22
     6.5200        22
     6.6000        34
     6.6800        28
     6.7600        30
     6.8400        26
     6.9200        24
     7.0000        24
     7.0800        18
     7.1600        24
     7.2400        22
     7.3200        38
     7.4000        30
     7.4800        36
     7.5600        32
     7.6400        28
     7.7200        30
     7.8000        30
     7.8800        26
     7.9600        26
     8.0400        20
     8.1200        26
     8.2000        30
     8.2800        28
     8.3600        40
     8.4400        40
     8.5200        40
     8.6000        28
     8.6800        34
     8.7600        30
     8.8400        28
     8.9200        38
     9.0000        36
     9.0800        38
     9.1600        32
     9.2400        32
     9.3200        34
     9.4000        38
     9.4800        26
     9.5600        30
     9.6400        30
     9.7200        36
     9.8000        30
     9.8800        34
     9.9600        26
    10.0400        36
    10.1200        36
    10.2000        42
    10.2800        36
    10.3600        32
    10.4400        32
    10.5200        26
    10.6000        26
    10.6800        24
    10.7600        26
    10.8400        46
    10.9200        28
    11.0000        32
    11.0800        28
    11.1600        40
    11.2400        42
    11.3200        28
    11.4000        34
    11.4800        46
    11.5600        28
    11.6400        34
    11.7200        30
    11.8000        28
    11.8800        40
    11.9600        44
    12.0400        42
    12.1200        36
    12.2000        52
    12.2800        36
    12.3600        36
    12.4400        44
    12.5200        46
    12.6000        30
    12.6800        40
    12.7600        36
    12.8400        46
    12.9200        42
    13.0000        58
    13.0800        46
    13.1600        52
    13.2400        40
    13.3200        52
    13.4000        42
    13.4800        68
    13.5600        50
    13.6400        54
    13.7200        60
    13.8000        46
    13.8800        56
    13.9600        46
    14.0400        60
    14.1200        66
    14.2000        54
    14.2800        62
    14.3600        44
    14.4400        52
    14.5200        64
    14.6000        70
    14.6800        62
    14.7600        60
    14.8400        66
    14.9200        54
    15.0000        58
    15.0800        50
    15.1600        50
    15.2400        52
    15.3200        72
    15.4000        60
    15.4800        62
    15.5600        78
    15.6400        66
    15.7200        70
    15.8000        68
    15.8800        70
    15.9600        74
    16.0400        62
    16.1200        80
    16.2000        62
    16.2800        62
    16.3600        84
    16.4400        96
    16.5200       112
    16.6000        94
    16.6800       100
    16.7600        86
    16.8400        58
    16.9200        70
    17.0000        68
    17.0800        58
    17.1600        54
    17.2400        58
    17.3200        54
    17.4000        56
    17.4800        50
    17.5600        56
    17.6400        58
    17.7200        70
    17.8000        50
    17.8800        64
    17.9600        64
    18.0400        62
    18.1200        66
    18.2000        56
    18.2800        48
    18.3600        60
    18.4400        56
    18.5200        62
    18.6000        66
    18.6800        70
    18.7600        68
    18.8400        62
    18.9200        82
    19.0000        58
    19.0800        58
    19.1600        70
    19.2400        94
    19.3200        68
    19.4000        64
    19.4800        66
    19.5600        68
    19.6400        66
    19.7200        84
    19.8000        90
    19.8800        78
    19.9600        90
    20.0400        70
    20.1200        76
    20.2000        68
    20.2800        86
    20.3600        86
    20.4400        72
    20.5200        64
    20.6000        82
    20.6800        76
    20.7600        82
    20.8400        86
    20.9200        84
    21.0000        80
    21.0800        74
    21.1600        84
    21.2400        68
    21.3200        90
    21.4000        84
    21.4800       100
    21.5600        58
    21.6400        82
    21.7200        72
    21.8000        84
    21.8800        70
    21.9600        76
    22.0400        68
    22.1200        74
    22.2000        68
    22.2800        72
    22.3600        84
    22.4400        88
    22.5200        78
    22.6000        88
    22.6800        80
    22.7600        80
    22.8400        70
    22.9200        70
    23.0000        88
    23.0800        90
    23.1600        66
    23.2400        74
    23.3200        94
    23.4000        80
    23.4800        90
    23.5600       102
    23.6400       112
    23.7200       120
    23.8000       106
    23.8800       106
    23.9600       100
    24.0400        86
    24.1200       104
    24.2000        92
    24.2800        90
    24.3600       104
    24.4400       100
    24.5200       112
    24.6000       100
    24.6800       116
    24.7600       114
    24.8400        92
    24.9200       108
    25.0000       136
    25.0800       114
    25.1600       140
    25.2400       104
    25.3200       128
    25.4000       122
    25.4800       126
    25.5600       120
    25.6400       126
    25.7200       114
    25.8000        98
    25.8800       108
    25.9600       104
    26.0400       106
    26.1200       106
    26.2000        78
    26.2800       102
    26.3600        72
    26.4400        84
    26.5200        72
    26.6000        76
    26.6800       110
    26.7600        84
    26.8400        86
    26.9200        96
    27.0000        98
    27.0800        96
    27.1600       102
    27.2400        82
    27.3200        92
    27.4000        74
    27.4800        98
    27.5600        88
    27.6400        84
    27.7200        90
    27.8000        78
    27.8800        86
    27.9600        88
    28.0400        86
    28.1200        94
    28.2000        84
    28.2800       100
    28.3600        70
    28.4400        72
    28.5200       104
    28.6000        90
    28.6800        86
    28.7600        84
    28.8400       104
    28.9200       134
    29.0000       114
    29.0800       112
    29.1600        98
    29.2400        72
    29.3200        64
    29.4000        72
    29.4800        64
    29.5600        72
    29.6400        48
    29.7200        66
    29.8000        68
    29.8800        62
    29.9600        82
    30.0400        78
    30.1200        52
    30.2000        70
    30.2800        68
    30.3600        58
    30.4400        46
    30.5200        54
    30.6000        56
    30.6800        40
    30.7600        52
    30.8400        64
    30.9200        46
    31.0000        54
    31.0800        42
    31.1600        40
    31.2400        56
    31.3200        42
    31.4000        46
    31.4800        46
    31.5600        52
    31.6400        62
    31.7200        52
    31.8000        44
    31.8800        46
    31.9600        46
    32.0400        32
    32.1200        58
    32.2000        44
    32.2800        38
    32.3600        62
    32.4400        44
    32.5200        42
    32.6000        34
    32.6800        36
    32.7600        46
    32.8400        42
    32.9200        44
    33.0000        62
    33.0800        32
    33.1600        54
    33.2400        46
    33.3200        32
    33.4000        46
    33.4800        46
    33.5600        42
    33.6400        42
    33.7200        42
    33.8000        58
    33.8800        52
    33.9600        48
    34.0400        36
    34.1200        48
    34.2000        46
    34.2800        32
    34.3600        42
    34.4400        48
    34.5200        38
    34.6000        44
    34.6800        32
    34.7600        40
    34.8400        36
    34.9200        40
    35.0000        36
    35.0800        40
    35.1600        32
    35.2400        40
    35.3200        28
    35.4000        40
    35.4800        38
    35.5600        44
    35.6400        38
    35.7200        48
    35.8000        40
    35.8800        30
    35.9600        30
    36.0400        42
    36.1200        34
    36.2000        48
    36.2800        36
    36.3600        46
    36.4400        36
    36.5200        24
    36.6000        34
    36.6800        42
    36.7600        34
    36.8400        28
    36.9200        44
    37.0000        38
    37.0800        26
    37.1600        32
    37.2400        32
    37.3200        36
    37.4000        28
    37.4800        36
    37.5600        40
    37.6400        26
    37.7200        32
    37.8000        42
    37.8800        44
    37.9600        42
    38.0400        38
    38.1200        46
    38.2000        26
    38.2800        36
    38.3600        42
    38.4400        26
    38.5200        26
    38.6000        34
    38.6800        30
    38.7600        36
    38.8400        36
    38.9200        38
    39.0000        36
    39.0800        38
    39.1600        28
    39.2400        36
    39.3200        30
    39.4000        38
    39.4800        28
    39.5600        36
    39.6400        22
    39.7200        30
    39.8000        18
    39.8800        30
    39.9600        30
    40.0400        38
    40.1200        26
    40.2000        28
    40.2800        28
    40.3600        34
    40.4400        36
    40.5200        34
    40.6000        24
    40.6800        32
    40.7600        30
    40.8400        22
    40.9200        20
    41.0000        38
    41.0800        30
    41.1600        38
    41.2400        28
    41.3200        30
    41.4000        28
    41.4800        22
    41.5600        34
    41.6400        36
    41.7200        28
    41.8000        24
    41.8800        26
    41.9600        32
    42.0400        30
    42.1200        34
    42.2000        28
    42.2800        30
    42.3600        36
    42.4400        30
    42.5200        32
    42.6000        36
    42.6800        36
    42.7600        40
    42.8400        22
    42.9200        32
    43.0000        34
    43.0800        20
    43.1600        24
    43.2400        34
    43.3200        34
    43.4000        28
    43.4800        26
    43.5600        34
    43.6400        26
    43.7200        44
    43.8000        30
    43.8800        42
    43.9600        34
    44.0400        50
    44.1200        38
    44.2000        42
    44.2800        30
    44.3600        26
    44.4400        30
    44.5200        24
    44.6000        22
    44.6800        30
    44.7600        30
    44.8400        30
    44.9200        40
    45.0000        40
    45.0800        42
    45.1600        48
    45.2400        38
    45.3200        28
    45.4000        20
    45.4800        20
    45.5600        24
    45.6400        28
    45.7200        24
    45.8000        24
    45.8800        28
    45.9600        28
    46.0400        32
    46.1200        26
    46.2000        20
    46.2800        28
    46.3600        20
    46.4400        20
    46.5200        28
    46.6000        26
    46.6800        28
    46.7600        32
    46.8400        20
    46.9200        24
    47.0000        22
    47.0800        22
    47.1600        24
    47.2400        20
    47.3200        26
    47.4000        28
    47.4800        20
    47.5600        34
    47.6400        26
    47.7200        28
    47.8000        22
    47.8800        20
    47.9600        16
    48.0400        32
    48.1200        26
    48.2000        26
    48.2800        24
    48.3600        18
    48.4400        26
    48.5200        26
    48.6000        26
    48.6800        32
    48.7600        28
    48.8400        26
    48.9200        22
    49.0000        28
    49.0800        22
    49.1600        22
    49.2400        24
    49.3200        26
    49.4000        22
    49.4800        22
    49.5600        18
    49.6400        18
    49.7200        36
    49.8000        26
    49.8800        18
    49.9600        34
    50.0400        22
    50.1200        24
    50.2000        20
    50.2800        22
    50.3600        24
    50.4400        20
    50.5200        20
    50.6000        22
    50.6800        32
    50.7600        24
    50.8400        26
    50.9200        14
    51.0000        20
    51.0800        32
    51.1600        22
    51.2400        26
    51.3200        34
    51.4000        22
    51.4800        38
    51.5600        26
    51.6400        28
    51.7200        30
    51.8000        22
    51.8800        26
    51.9600        20
    52.0400        24
    52.1200        34
    52.2000        22
    52.2800        20
    52.3600        18
    52.4400        28
    52.5200        22
    52.6000        26
    52.6800        18
    52.7600        22
    52.8400        22
    52.9200        28
    53.0000        22
    53.0800        20
    53.1600        24
    53.2400        20
    53.3200        18
    53.4000        26
    53.4800        28
    53.5600        22
    53.6400        18
    53.7200        26
    53.8000        28
    53.8800        22
    53.9600        32
    54.0400        24
    54.1200        22
    54.2000        24
    54.2800        24
    54.3600        24
    54.4400        16
    54.5200        20
    54.6000        24
    54.6800        28
    54.7600        18
    54.8400        22
    54.9200        24
    55.0000        20
    55.0800        24
    55.1600        30
    55.2400        18
    55.3200        32
    55.4000        18
    55.4800        20
    55.5600        22
    55.6400        18
    55.7200        18
    55.8000        16
    55.8800        18
    55.9600        20
    56.0400        24
    56.1200        14
    56.2000        30
    56.2800        18
    56.3600        24
    56.4400        16
    56.5200        24
    56.6000        18
    56.6800        14
    56.7600        20
    56.8400        20
    56.9200        22
    57.0000        12
    57.0800        20
    57.1600        22
    57.2400        20
    57.3200        18
    57.4000        28
    57.4800        24
    57.5600        28
    57.6400        28
    57.7200        22
    57.8000        20
    57.8800        22
    57.9600        18
    58.0400        18
    58.1200        22
    58.2000        16
    58.2800        20
    58.3600        16
    58.4400        14
    58.5200        24
    58.6000        12
    58.6800        14
    58.7600        20
    58.8400        22
    58.9200         8
    59.0000        16
    59.0800        18
    59.1600        28
    59.2400        18
    59.3200        14
    59.4000        22
    59.4800        10
    59.5600        14
    59.6400        18
    59.7200        18
    59.8000        16
    59.8800        18
    59.9600        14
    60.0400        28
    60.1200        22
    60.2000        20
    60.2800        26
    60.3600        18
    60.4400        22
    60.5200        12
    60.6000        18
    60.6800        16
    60.7600        18
    60.8400        14
    60.9200        18
    61.0000        24
    61.0800        18
    61.1600        14
    61.2400        16
    61.3200        24
    61.4000        16
    61.4800        18
    61.5600        18
    61.6400        22
    61.7200        12
    61.8000        20
    61.8800        18
    61.9600        18
    62.0400        18
    62.1200        20
    62.2000        18
    62.2800        18
    62.3600        24
    62.4400        22
    62.5200        22
    62.6000        12
    62.6800        20
    62.7600        26
    62.8400        12
    62.9200        18
    63.0000        24
    63.0800        12
    63.1600        24
    63.2400        18
    63.3200        18
    63.4000        16
    63.4800        16
    63.5600        14
    63.6400        22
    63.7200        12
    63.8000        18
    63.8800        18
    63.9600        18
    64.0400        20
    64.1200        18
    64.2000        22
    64.2800        28
    64.3600        32
    64.4400        36
    64.5200        22
    64.6000        26
    64.6800        20
    64.7600        20
    64.8400        14
    64.9200        20
    65.0000        18
    65.0800        12
    65.1600        14
    65.2400        14
    65.3200        12
    65.4000         8
    65.4800        18
    65.5600        18
    65.6400        18
    65.7200        14
    65.8000        14
    65.8800        12
    65.9600        10
    66.0400        16
    66.1200        14
    66.2000        10
    66.2800        16
    66.3600        18
    66.4400        22
    66.5200        16
    66.6000        16
    66.6800        16
    66.7600        12
    66.8400        14
    66.9200        12
    67.0000        18
    67.0800        16
    67.1600        12
    67.2400        12
    67.3200        14
    67.4000        14
    67.4800        18
    67.5600        12
    67.6400        10
    67.7200        14
    67.8000        12
    67.8800        20
    67.9600        14
    68.0400        14
    68.1200        16
    68.2000        14
    68.2800        24
    68.3600        16
    68.4400        20
    68.5200        16
    68.6000        20
    68.6800        20
    68.7600        12
    68.8400        18
    68.9200        18
    69.0000        14
    69.0800        16
    69.1600        10
    69.2400        10
    69.3200        22
    69.4000        14
    69.4800        16
    69.5600        12
    69.6400        18
    69.7200        16
    69.8000        10
    69.8800        16
    69.9600        16
    70.0400        14
    70.1200        14
    70.2000        16
    70.2800        14
    70.3600        20
    70.4400        22
    70.5200        12
    70.6000        12
    70.6800        20
    70.7600        24
    70.8400        16
    70.9200        16
    71.0000        18
    71.0800        20
    71.1600        18
    71.2400        18
    71.3200        16
    71.4000        12
    71.4800        14
    71.5600        22
    71.6400        18
    71.7200        14
    71.8000        20
    71.8800        16
    71.9600        18
    72.0400        18
    72.1200        14
    72.2000        14
    72.2800        18
    72.3600        20
    72.4400        26
    72.5200        22
    72.6000        10
    72.6800        16
    72.7600        18
    72.8400        10
    72.9200        12
    73.0000        18
    73.0800        20
    73.1600        18
    73.2400        26
    73.3200        12
    73.4000        22
    73.4800        20
    73.5600        18
    73.6400        22
    73.7200        24
    73.8000        20
    73.8800        12
    73.9600        20
    74.0400        18
    74.1200        18
    74.2000        24
    74.2800        12
    74.3600        28
    74.4400        20
    74.5200        16
    74.6000        14
    74.6800        16
    74.7600        14
    74.8400        26
    74.9200        18
    75.0000        16
    75.0800        20
    75.1600        10
    75.2400        20
    75.3200        16
    75.4000        14
    75.4800        20
    75.5600        18
    75.6400        10
    75.7200        14
    75.8000        24
    75.8800        12
    75.9600        16
    76.0400        14
    76.1200        12
    76.2000        14
    76.2800        14
    76.3600        14
    76.4400        14
    76.5200        14
    76.6000        14
    76.6800        10
    76.7600        18
    76.8400        26
    76.9200        20
    77.0000        26
    77.0800        22
    77.1600        24
    77.2400        18
    77.3200        16
    77.4000        30
    77.4800        40
    77.5600        32
    77.6400        32
    77.7200        36
    77.8000        18
    77.8800        10
    77.9600        26
    78.0400        24
    78.1200        20
    78.2000        16
    78.2800        16
    78.3600        14
    78.4400        14
    78.5200        16
    78.6000        14
    78.6800        18
    78.7600        18
    78.8400        12
    78.9200        26
    79.0000         8
    79.0800         8
    79.1600        14
    79.2400        20
    79.3200         8
    79.4000         8
    79.4800        16
    79.5600        12
    79.6400        12
    79.7200        12
    79.8000        18
    79.8800         8
    79.9600        10
    80.0400        14
    80.1200        20
    80.2000        14
    80.2800        16
    80.3600        20
    80.4400        16
    80.5200        12
    80.6000         6
    80.6800        16
    80.7600        10
    80.8400        16
    80.9200        12
    81.0000        20
    81.0800        14
    81.1600        14
    81.2400        18
    81.3200        12
    81.4000        12
    81.4800        12
    81.5600        10
    81.6400        14
    81.7200        12
    81.8000        12
    81.8800        14
    81.9600        20
    82.0400        14
    82.1200        12
    82.2000        14
    82.2800        20
    82.3600        12
    82.4400        12
    82.5200        16
    82.6000        10
    82.6800        14
    82.7600        16
    82.8400        14
    82.9200        14
    83.0000        14
    83.0800        10
    83.1600        12
    83.2400        10
    83.3200        10
    83.4000        18
    83.4800        10
    83.5600        14
    83.6400        12
    83.7200         8
    83.8000        12
    83.8800        18
    83.9600        14
    84.0400        14
    84.1200        10
    84.2000        18
    84.2800        10
    84.3600        14
    84.4400        16
    84.5200        18
    84.6000        14
    84.6800        20
    84.7600         4
    84.8400        18
    84.9200        14
    85.0000        12
    85.0800        14
    85.1600        16
    85.2400        18
    85.3200         8
    85.4000        16
    85.4800        20
    85.5600        14
    85.6400        10
    85.7200        10
    85.8000        10
    85.8800        16
    85.9600        14
    86.0400        16
    86.1200        14
    86.2000         8
    86.2800        14
    86.3600        20
    86.4400        12
    86.5200        22
    86.6000        20
    86.6800        18
    86.7600        22
    86.8400        16
    86.9200        12
    87.0000        10
    87.0800        16
    87.1600        10
    87.2400         6
    87.3200        18
    87.4000        10
    87.4800        12
    87.5600         8
    87.6400        12
    87.7200        18
    87.8000        14
    87.8800        14
    87.9600        20
    88.0400        10
    88.1200        14
    88.2000        20
    88.2800        12
    88.3600        14
    88.4400         8
    88.5200        16
    88.6000        12
    88.6800        12
    88.7600        16
    88.8400        12
    88.9200        16
    89.0000        10
    89.0800        12
    89.1600        12
    89.2400        22
    89.3200        14
    89.4000        20
    89.4800        20
    89.5600         6
    89.6400        16
    89.7200        16
    89.8000        12
    89.8800        10
    89.9600        16
    90.0400        10
    90.1200        12
    90.2000        20
    90.2800         6
    90.3600        12
    90.4400        12
    90.5200         8
    90.6000        12
    90.6800        10
    90.7600        20
    90.8400        14
    90.9200        10
    91.0000        10
    91.0800        12
    91.1600        10
    91.2400        12
    91.3200        16
    91.4000        12
    91.4800         8
    91.5600        16
    91.6400        10
    91.7200        10
    91.8000        16
    91.8800        20
    91.9600        10
    92.0400        14
    92.1200        18
    92.2000         8
    92.2800        14
    92.3600        14
    92.4400         6
    92.5200        10
    92.6000         8
    92.6800        14
    92.7600         6
    92.8400        12
    92.9200        16
    93.0000        14
    93.0800        12
    93.1600        14
    93.2400        10
    93.3200         8
    93.4000        12
    93.4800        14
    93.5600         6
    93.6400        12
    93.7200        10
    93.8000         6
    93.8800        10
    93.9600        20
    94.0400        12
    94.1200        12
    94.2000         8
    94.2800        16
    94.3600        12
    94.4400        16
    94.5200         8
    94.6000        10
    94.6800        14
    94.7600        12
    94.8400         6
    94.9200        10
    95.0000        12
    95.0800        12
    95.1600        10
    95.2400        16
    95.3200        18
    95.4000         8
    95.4800         6
    95.5600        14
    95.6400        14
    95.7200         8
    95.8000         4
    95.8800        14
    95.9600         8
    96.0400        10
    96.1200        16
    96.2000        10
    96.2800        10
    96.3600         4
    96.4400        14
    96.5200         4
    96.6000        14
    96.6800        12
    96.7600        12
    96.8400         8
    96.9200        12
    97.0000        12
    97.0800        12
    97.1600        10
    97.2400        12
    97.3200         6
    97.4000         8
    97.4800        10
    97.5600        12
    97.6400        12
    97.7200        14
    97.8000        18
    97.8800         6
    97.9600         6
    98.0400        18
    98.1200        12
    98.2000        14
    98.2800        16
    98.3600        18
    98.4400        12
    98.5200        20
    98.6000        16
    98.6800        18
    98.7600        10
    98.8400        14
    98.9200        12
    99.0000         6
    99.0800         8
    99.1600        12
    99.2400        16
    99.3200        12
    99.4000        14
    99.4800        10
    99.5600        12
    99.6400        12
    99.7200         8
    99.8000         6
    99.8800        10
    99.9600         6
   100.0400        14
   100.1200        14
   100.2000        10
   100.2800        14
   100.3600        12
   100.4400         4
   100.5200        10
   100.6000        18
   100.6800        10
   100.7600        16
   100.8400         6
   100.9200        10
   101.0000        10
   101.0800        14
   101.1600        12
   101.2400        14
   101.3200        12
   101.4000         6
   101.4800        12
   101.5600        10
   101.6400         6
   101.7200        10
   101.8000         6
   101.8800        12
   101.9600        12
   102.0400         8
   102.1200        12
   102.2000        14
   102.2800        10
   102.3600         8
   102.4400         8
   102.5200        14
   102.6000         6
   102.6800        14
   102.7600        14
   102.8400         8
   102.9200         6
   103.0000        10
   103.0800         6
   103.1600        12
   103.2400        14
   103.3200        10
   103.4000         8
   103.4800        12
   103.5600        14
   103.6400         6
   103.7200        14
   103.8000        16
   103.8800         8
   103.9600        10
   104.0400        10
   104.1200         8
   104.2000        12
   104.2800        18
   104.3600        12
   104.4400         8
   104.5200        12
   104.6000         6
   104.6800         8
   104.7600        16
   104.8400         6
   104.9200        14
   105.0000        12
   105.0800        10
   105.1600        10
   105.2400        12
   105.3200        10
   105.4000        12
   105.4800         8
   105.5600        12
   105.6400        10
   105.7200        12
   105.8000        14
   105.8800         6
   105.9600        12
   106.0400        14
   106.1200        14
   106.2000         8
   106.2800        12
   106.3600         2
   106.4400        12
   106.5200        10
   106.6000        10
   106.6800        14
   106.7600         6
   106.8400         8
   106.9200        14
   107.0000        10
   107.0800        16
   107.1600        14
   107.2400        10
   107.3200        14
   107.4000         8
   107.4800        14
   107.5600        16
   107.6400         8
   107.7200        12
   107.8000        12
   107.8800        10
   107.9600        12
   108.0400        10
   108.1200         6
   108.2000        12
   108.2800        14
   108.3600        10
   108.4400         8
   108.5200        10
   108.6000        20
   108.6800        12
   108.7600        12
   108.8400        10
   108.9200         8
   109.0000         8
   109.0800        10
   109.1600        14
   109.2400        10
   109.3200        22
   109.4000        14
   109.4800        16
   109.5600        12
   109.6400         8
   109.7200        12
   109.8000        14
   109.8800        10
   109.9600        14
   110.0400        16
   110.1200        12
   110.2000        12
   110.2800        14
   110.3600         6
   110.4400        12
   110.5200        16
   110.6000        12
   110.6800        16
   110.7600        16
   110.8400        14
   110.9200        18
   111.0000         8
   111.0800         8
   111.1600        16
   111.2400        12
   111.3200        18
   111.4000        14
   111.4800        20
   111.5600        16
   111.6400        12
   111.7200        12
   111.8000        10
   111.8800        14
   111.9600        10
   112.0400        10
   112.1200         8
   112.2000        10
   112.2800        16
   112.3600        10
   112.4400        10
   112.5200        14
   112.6000        18
   112.6800        12
   112.7600        12
   112.8400         8
   112.9200        10
   113.0000         8
   113.0800        12
   113.1600        12
   113.2400        22
   113.3200        12
   113.4000        12
   113.4800         4
   113.5600        10
   113.6400        10
   113.7200        14
   113.8000        12
   113.8800        16
   113.9600        10
   114.0400        10
   114.1200        10
   114.2000        16
   114.2800         4
   114.3600        16
   114.4400        12
   114.5200         8
   114.6000        14
   114.6800         8
   114.7600         8
   114.8400        14
   114.9200        10
   115.0000        12
   115.0800         8
   115.1600        12
   115.2400        10
   115.3200        26
   115.4000        10
   115.4800        14
   115.5600        14
   115.6400        20
   115.7200        26
   115.8000        26
   115.8800        18
   115.9600        22
   116.0400        20
   116.1200        12
   116.2000        14
   116.2800        24
   116.3600        16
   116.4400        16
   116.5200        16
   116.6000         4
   116.6800         8
   116.7600         8
   116.8400         6
   116.9200        16
   117.0000        12
   117.0800        16
   117.1600        12
   117.2400         8
   117.3200         8
   117.4000        18
   117.4800         8
   117.5600        18
   117.6400        16
   117.7200         6
   117.8000         8
   117.8800        14
   117.9600        10
   118.0400        10
   118.1200        14
   118.2000         8
   118.2800        16
   118.3600        16
   118.4400        10
   118.5200        18
   118.6000        12
   118.6800         8
   118.7600        12
   118.8400         6
   118.9200        16
   119.0000        14
   119.0800        10
   119.1600        10
   119.2400        10
   119.3200        16
   119.4000        12
   119.4800        12
   119.5600        12
   119.6400         8
   119.7200        10
   119.8000        14
   119.8800        10
   119.9600        12
   120.0000        10